{
  "resourceType": "Bundle",
  "id": "55bca0c0-4752-4d37-81c8-0d7af9f2f80a",
  "identifier": {
    "system": "urn:oid:2.16.840.1.113883.2.9.2.120.4.4",
    "value": "030702.LCNLDE90L47H501Q.20220420112426.Q123E456",
    "assigner": { "display": "Regione Lazio" }
  },
  "type": "transaction",
  "timestamp": "2025-10-10T16:07:41+02:00",
  "entry": [
    {
      "fullUrl": "https://example/Composition/83cbc1e8-4e4d-44cf-8cf3-814fa56a3a0f",
      "resource": {
        "resourceType": "Composition",
        "id": "83cbc1e8-4e4d-44cf-8cf3-814fa56a3a0f",
        "language": "it-IT",
        "identifier": {
          "system": "urn:oid:2.16.840.1.113883.2.9.2.120.4.4",
          "value": "030702.LCNLDE90L47H501Q.20220420112426.Q123E456",
          "assigner": { "display": "Regione Lazio" }
        },
        "status": "final",
        "type": {
          "coding": [
            {
              "system": "http://loinc.org",
              "code": "87273-9",
              "display": "Immunization note"
            }
          ]
        },
        "subject": {
          "reference": "https://example/Patient/252c0cc1-06bf-4ce1-8317-3c8fec7d3e70"
        },
        "encounter": {
          "reference": "https://example/Encounter/aba33e02-5a5e-47c2-8391-8433b27d5280"
        },
        "date": "2022-02-10T18:30:23+01:00",
        "author": [
          {
            "reference": "https://example/PractitionerRole/dd778335-cb76-489a-938a-268f8ca6bc4c"
          }
        ],
        "title": "Scheda della singola Vaccinazione",
        "confidentiality": "N",
        "attester": [
          {
            "mode": "legal",
            "time": "2022-03-30T11:24:26+01:00",
            "party": {
              "reference": "https://example/PractitionerRole/171d7417-a11d-4240-8917-9182ac339567"
            }
          }
        ],
        "custodian": {
          "reference": "https://example/Organization/2.16.840.1.113883.2.9.4.1.1-XXX"
        },
        "section": [
          {
            "title": "Scheda della singola Vaccinazione",
            "code": {
              "coding": [
                {
                  "system": "http://loinc.org",
                  "code": "11369-6",
                  "display": "History of Immunization Narrative"
                }
              ]
            },
            "text": {
              "status": "generated",
              "div": "<div xmlns=\"http://www.w3.org/1999/xhtml\">\n\t\t\t\t\t\t[NARRATIVE_BLOCK]\n\t\t\t\t\t</div>"
            },
            "entry": [
              {
                "reference": "https://example/Immunization/8623a8bf-19ed-492d-b7a2-e1729b01b6d3"
              }
            ]
          }
        ]
      },
      "request": { "method": "POST", "url": "Composition" }
    },
    {
      "fullUrl": "https://example/Organization/1.2.3.4.5.6.7-999999",
      "resource": {
        "resourceType": "Organization",
        "id": "1.2.3.4.5.6.7-999999",
        "identifier": [
          {
            "system": "urn:oid:1.2.3.4.5.6.7",
            "value": "999999",
            "assigner": { "display": "[NOME_AUTHORITY]" }
          }
        ]
      },
      "request": { "method": "PUT", "url": "Organization?identifier=999999" }
    },
    {
      "fullUrl": "https://example/PractitionerRole/dd778335-cb76-489a-938a-268f8ca6bc4c",
      "resource": {
        "resourceType": "PractitionerRole",
        "id": "dd778335-cb76-489a-938a-268f8ca6bc4c",
        "practitioner": {
          "reference": "https://example/Practitioner/2.16.840.1.113883.2.9.4.3.2-PROVAX00X00X000Y"
        },
        "organization": {
          "reference": "https://example/Organization/2.16.840.1.113883.2.9.4.1.2-120148"
        }
      },
      "request": { "method": "POST", "url": "PractitionerRole" }
    },
    {
      "fullUrl": "https://example/Organization/2.16.840.1.113883.2.9.4.1.1-XXX",
      "resource": {
        "resourceType": "Organization",
        "id": "2.16.840.1.113883.2.9.4.1.1-XXX",
        "identifier": [
          {
            "system": "urn:oid:2.16.840.1.113883.2.9.4.1.1",
            "value": "XXX",
            "assigner": { "display": "Ministero della Salute" }
          }
        ],
        "telecom": [
          { "system": "phone", "value": "3340000000", "use": "work" }
        ],
        "address": [
          {
            "use": "work",
            "line": [null, "XXX"],
            "_line": [
              {
                "extension": [
                  {
                    "url": "http://hl7.org/fhir/StructureDefinition/iso21090-ADXP-censusTract",
                    "valueString": "058091"
                  }
                ]
              },
              null
            ],
            "city": "Roma",
            "district": "RM",
            "state": "120",
            "postalCode": "00137",
            "country": "100"
          }
        ]
      },
      "request": { "method": "PUT", "url": "Organization?identifier=XXX" }
    },
    {
      "fullUrl": "https://example/Patient/252c0cc1-06bf-4ce1-8317-3c8fec7d3e70",
      "resource": {
        "resourceType": "Patient",
        "id": "252c0cc1-06bf-4ce1-8317-3c8fec7d3e70",
        "extension": [
          {
            "url": "http://hl7.org/fhir/StructureDefinition/patient-birthPlace",
            "valueAddress": {
              "line": [null],
              "_line": [
                {
                  "extension": [
                    {
                      "url": "http://hl7.org/fhir/StructureDefinition/iso21090-ADXP-censusTract",
                      "valueString": "058091"
                    }
                  ]
                }
              ],
              "city": "Roma",
              "district": "RM",
              "state": "120",
              "country": "100"
            }
          }
        ],
        "identifier": [
          {
            "system": "urn:oid:2.16.840.1.113883.2.9.4.3.2",
            "value": "GTWGWY82B42G920M",
            "assigner": { "display": "MEF" }
          },
          {
            "system": "urn:oid:2.16.840.1.113883.9.9.9.9.9.9",
            "value": "11111htttt",
            "assigner": { "display": "SAN RAFFAELE NOMENTANA" }
          }
        ],
        "telecom": [
          {
            "system": "email",
            "value": "prova.provax@example.com",
            "use": "home"
          },
          { "system": "phone", "value": "3340000000", "use": "mobile" }
        ],
        "gender": "male",
        "birthDate": "1993-06-19",
        "address": [
          {
            "use": "home",
            "line": [null, "via Aurora 12"],
            "_line": [
              {
                "extension": [
                  {
                    "url": "http://hl7.org/fhir/StructureDefinition/iso21090-ADXP-censusTract",
                    "valueString": "058091"
                  }
                ]
              },
              null
            ],
            "city": "Roma",
            "district": "RM",
            "state": "120",
            "postalCode": "00187",
            "country": "100"
          }
        ]
      },
      "request": {
        "method": "PUT",
        "url": "Patient?identifier=GTWGWY82B42G920M"
      }
    },
    {
      "fullUrl": "https://example/Encounter/aba33e02-5a5e-47c2-8391-8433b27d5280",
      "resource": {
        "resourceType": "Encounter",
        "id": "aba33e02-5a5e-47c2-8391-8433b27d5280",
        "identifier": [
          {
            "system": "urn:oid:2.16.840.1.113883.2.9.2.120.4.4",
            "value": "030702.LCNLDE90L47H501Q.20220420112426.Q123E456",
            "assigner": { "display": "Regione Lazio" }
          }
        ],
        "status": "finished",
        "class": {
          "system": "http://loinc.org",
          "code": "87273-9",
          "display": "Immunization note"
        },
        "subject": {
          "reference": "https://example/Patient/252c0cc1-06bf-4ce1-8317-3c8fec7d3e70"
        },
        "participant": [
          {
            "type": [
              {
                "coding": [
                  {
                    "system": "http://terminology.hl7.org/CodeSystem/v3-ParticipationType",
                    "code": "IND"
                  }
                ]
              }
            ],
            "individual": {
              "reference": "https://example/PractitionerRole/4d614981-3215-44ec-8e01-b115398f625b"
            }
          }
        ],
        "period": { "start": "2022-02-10T18:30:23+01:00" }
      },
      "request": { "method": "POST", "url": "Encounter" }
    },
    {
      "fullUrl": "https://example/PractitionerRole/4d614981-3215-44ec-8e01-b115398f625b",
      "resource": {
        "resourceType": "PractitionerRole",
        "id": "4d614981-3215-44ec-8e01-b115398f625b",
        "practitioner": {
          "reference": "https://example/Practitioner/2.16.840.1.113883.2.9.4.3.2-PROVAX00X00X000Y"
        }
      },
      "request": { "method": "POST", "url": "PractitionerRole" }
    },
    {
      "fullUrl": "https://example/Organization/2.16.840.1.113883.2.9.4.1.2-120148",
      "resource": {
        "resourceType": "Organization",
        "id": "2.16.840.1.113883.2.9.4.1.2-120148",
        "identifier": [
          {
            "system": "urn:oid:2.16.840.1.113883.2.9.4.1.2",
            "value": "120148",
            "assigner": { "display": "Ministero della Salute" }
          }
        ],
        "telecom": [
          { "system": "phone", "value": " 010 337288945", "use": "work" }
        ],
        "address": [
          {
            "use": "work",
            "line": [null, "via Emilio Praga 39"],
            "_line": [
              {
                "extension": [
                  {
                    "url": "http://hl7.org/fhir/StructureDefinition/iso21090-ADXP-censusTract",
                    "valueString": "058091"
                  }
                ]
              },
              null
            ],
            "city": "Roma",
            "district": "RM",
            "state": "120",
            "postalCode": "00137",
            "country": "100"
          }
        ]
      },
      "request": { "method": "PUT", "url": "Organization?identifier=120148" }
    },
    {
      "fullUrl": "https://example/Location/2.16.840.1.113883.2.9.4.1.2-120148",
      "resource": {
        "resourceType": "Location",
        "id": "2.16.840.1.113883.2.9.4.1.2-120148",
        "identifier": [
          {
            "system": "urn:oid:2.16.840.1.113883.2.9.4.1.2",
            "value": "120148",
            "assigner": { "display": "Ministero della Salute" }
          }
        ]
      },
      "request": { "method": "PUT", "url": "Location?identifier=120148" }
    },
    {
      "fullUrl": "https://example/Observation/669c30e9-a3da-44ea-a32c-a092285b264d",
      "resource": {
        "resourceType": "Observation",
        "id": "669c30e9-a3da-44ea-a32c-a092285b264d",
        "status": "final",
        "code": {
          "coding": [
            {
              "system": "http://loinc.org",
              "code": "95715-9",
              "display": "Categorie a rischio"
            }
          ]
        },
        "subject": {
          "reference": "https://example/Patient/252c0cc1-06bf-4ce1-8317-3c8fec7d3e70"
        },
        "encounter": {
          "reference": "https://example/Encounter/aba33e02-5a5e-47c2-8391-8433b27d5280"
        },
        "referenceRange": [
          {
            "appliesTo": [
              {
                "coding": [
                  {
                    "system": "urn:oid:2.16.840.1.113883.2.9.6.1.56.2",
                    "code": "22",
                    "display": "Viaggi all'estero"
                  }
                ]
              }
            ],
            "text": "string"
          }
        ]
      },
      "request": { "method": "POST", "url": "Observation" }
    },
    {
      "fullUrl": "https://example/Observation/19b7ac65-2461-4e42-8344-27b61f94521a",
      "resource": {
        "resourceType": "Observation",
        "id": "19b7ac65-2461-4e42-8344-27b61f94521a",
        "status": "final",
        "code": {
          "coding": [
            {
              "system": "http://loinc.org",
              "code": "59785-6",
              "display": "Indicazioni per la vaccinazione"
            }
          ]
        },
        "subject": {
          "reference": "https://example/Patient/252c0cc1-06bf-4ce1-8317-3c8fec7d3e70"
        },
        "encounter": {
          "reference": "https://example/Encounter/aba33e02-5a5e-47c2-8391-8433b27d5280"
        },
        "valueCodeableConcept": {
          "coding": [
            {
              "system": "http://hl7.org/fhir/sid/icd-9",
              "code": "493.9",
              "display": "bronchite asmatica (acuta)"
            }
          ],
          "text": "#[REF_CONSRISK]"
        }
      },
      "request": { "method": "POST", "url": "Observation" }
    },
    {
      "fullUrl": "https://example/Immunization/8623a8bf-19ed-492d-b7a2-e1729b01b6d3",
      "resource": {
        "resourceType": "Immunization",
        "id": "8623a8bf-19ed-492d-b7a2-e1729b01b6d3",
        "status": "completed",
        "vaccineCode": {
          "coding": [
            {
              "system": "urn:oid:2.16.840.1.113883.2.9.6.1.5",
              "code": "035606033",
              "display": "ARIXTRA*2,5MG/0,5MLSC 10SIR."
            },
            {
              "system": "http://www.whocc.no/atc",
              "code": "B01AX05",
              "display": "FONDAPARINUX"
            }
          ]
        },
        "patient": {
          "reference": "https://example/Patient/252c0cc1-06bf-4ce1-8317-3c8fec7d3e70"
        },
        "occurrenceDateTime": "2022-03-30T10:10:00+01:00",
        "location": {
          "reference": "https://example/Location/2.16.840.1.113883.2.9.4.1.2-120148"
        },
        "manufacturer": {
          "reference": "https://example/Organization/1.2.3.4.5.6.7-999999"
        },
        "lotNumber": "20",
        "expirationDate": "2022-03-01",
        "site": {
          "coding": [
            {
              "system": "http://terminology.hl7.org/CodeSystem/v3-ActSite",
              "code": "LA",
              "display": "left arm"
            }
          ]
        },
        "route": {
          "coding": [
            {
              "system": "http://terminology.hl7.org/CodeSystem/v3-RouteOfAdministration",
              "code": "IABDINJ",
              "display": "Injection, intra-abdominal"
            }
          ]
        },
        "doseQuantity": { "value": 20, "unit": "mL" },
        "reasonReference": [
          {
            "reference": "https://example/Observation/669c30e9-a3da-44ea-a32c-a092285b264d"
          },
          {
            "reference": "https://example/Observation/19b7ac65-2461-4e42-8344-27b61f94521a"
          },
          {
            "reference": "https://example/Observation/7e3a6304-39d3-4805-84e4-5e5d19a70477"
          }
        ],
        "protocolApplied": [
          {
            "targetDisease": [
              {
                "coding": [
                  {
                    "system": "http://hl7.org/fhir/sid/icd-9",
                    "code": "99.45",
                    "display": "Morbillo"
                  }
                ],
                "text": "#[REF_MAL]"
              }
            ],
            "doseNumberString": "3"
          }
        ]
      },
      "request": { "method": "POST", "url": "Immunization" }
    },
    {
      "fullUrl": "https://example/Practitioner/2.16.840.1.113883.2.9.4.3.2-PROVAX00X00X000Y",
      "resource": {
        "resourceType": "Practitioner",
        "id": "2.16.840.1.113883.2.9.4.3.2-PROVAX00X00X000Y",
        "identifier": [
          {
            "system": "urn:oid:2.16.840.1.113883.2.9.4.3.2",
            "value": "PROVAX00X00X000Y",
            "assigner": { "display": "MEF" }
          }
        ]
      },
      "request": {
        "method": "PUT",
        "url": "Practitioner?identifier=PROVAX00X00X000Y"
      }
    },
    {
      "fullUrl": "https://example/DocumentReference/04b4fb04-ea96-4cb4-bc2b-91da45730773",
      "resource": {
        "resourceType": "DocumentReference",
        "id": "04b4fb04-ea96-4cb4-bc2b-91da45730773",
        "status": "current",
        "subject": {
          "reference": "https://example/Patient/252c0cc1-06bf-4ce1-8317-3c8fec7d3e70"
        },
        "author": [
          {
            "reference": "https://example/Practitioner/2.16.840.1.113883.2.9.4.3.2-PROVAX00X00X000Y"
          }
        ],
        "custodian": {
          "reference": "https://example/Organization/2.16.840.1.113883.2.9.4.1.1-XXX"
        },
        "content": [{ "attachment": { "title": "string" } }],
        "context": {
          "related": [
            {
              "reference": "https://example/Composition/83cbc1e8-4e4d-44cf-8cf3-814fa56a3a0f"
            }
          ]
        }
      },
      "request": { "method": "POST", "url": "DocumentReference" }
    },
    {
      "fullUrl": "https://example/PractitionerRole/171d7417-a11d-4240-8917-9182ac339567",
      "resource": {
        "resourceType": "PractitionerRole",
        "id": "171d7417-a11d-4240-8917-9182ac339567",
        "practitioner": {
          "reference": "https://example/Practitioner/2.16.840.1.113883.2.9.4.3.2-PROVAX00X00X000Y"
        }
      },
      "request": { "method": "POST", "url": "PractitionerRole" }
    },
    {
      "fullUrl": "https://example/Observation/7e3a6304-39d3-4805-84e4-5e5d19a70477",
      "resource": {
        "resourceType": "Observation",
        "id": "7e3a6304-39d3-4805-84e4-5e5d19a70477",
        "status": "final",
        "code": {
          "coding": [
            {
              "system": "http://loinc.org",
              "code": "31044-1",
              "display": "Immunization reaction"
            }
          ]
        },
        "subject": {
          "reference": "https://example/Patient/252c0cc1-06bf-4ce1-8317-3c8fec7d3e70"
        },
        "encounter": {
          "reference": "https://example/Encounter/aba33e02-5a5e-47c2-8391-8433b27d5280"
        },
        "effectivePeriod": {
          "start": "2022-04-27T10:10:10+01:00",
          "end": "2022-05-06T10:10:10+01:00"
        },
        "valueCodeableConcept": {
          "coding": [
            {
              "system": "http://hl7.org/fhir/sid/icd-9",
              "code": "692.3",
              "display": "Dermatite da contatto con farmaci"
            }
          ],
          "text": "#[REF_REAZ]"
        }
      },
      "request": { "method": "POST", "url": "Observation" }
    }
  ]
}
